Folder: phd_thesis/1_main_matter/thin_film_figures/luminophores/tikz/CSVs/photochemcad

Note: README.md
# Non-Invasive Transcutaneous Characterisation of Blood Carbon Dioxide Content - PhD Thesis' Manuscript

This repository contains all the resources and LaTeX files needed to compile my PhD thesis, which is about the non-invasive transcutaneous characterisation of blood carbon dioxide content.

## How to Compile

### Dependencies

To be able to compile this manuscript, you will need:

  - a working LuaLaTeX compilation toolchain, with commands `lualatex` and `biber` available. Compilation was tested on MacOS using TeX Live 2023. TeX Live can be downloaded [here](https://www.tug.org/texlive/).
  - Ghostscript, which can be installed on Linux via `apt-get install ghostscript` and on macOS via `brew install ghostscript`.
  - bash, but this hopefully comes with your OS.

### Compilation

Simply runs the `compile_thesis.sh` script located at this project's root. The resulting manuscript can then be found at `out/thesis.pdf`.

File: hpts_abs.csv
Wavelength (nm),C16 abs e
210.00,15976
212.00,16049
214.00,15179
216.00,13519
218.00,13000
220.00,13569
222.00,14954
224.00,16914
226.00,18945
228.00,20510
230.00,21548
232.00,22433
234.00,23077
236.00,22897
238.00,21736
240.00,19928
242.00,18117
244.00,17259
246.00,17207
248.00,17003
250.00,16870
252.00,17467
254.00,18287
256.00,17741
258.00,15067
260.00,11481
262.00,8542.0
264.00,6743.0
266.00,5880.1
268.00,5573.1
270.00,5564.9
272.00,5780.6
274.00,6229.8
276.00,6805.7
278.00,7391.9
280.00,7896.0
282.00,8427.4
284.00,9122.3
286.00,10038
288.00,11101
290.00,12126
292.00,13046
294.00,13849
296.00,14492
298.00,14678
300.00,14163
302.00,13120
304.00,11886
306.00,10677
308.00,9537.0
310.00,8523.9
312.00,7649.3
314.00,6922.8
316.00,6301.9
318.00,5726.9
320.00,5190.7
322.00,4669.7
324.00,4186.4
326.00,3751.1
328.00,3364.9
330.00,3028.1
332.00,2726.6
334.00,2442.8
336.00,2179.5
338.00,1938.5
340.00,1736.9
342.00,1595.4
344.00,1516.8
346.00,1501.7
348.00,1531.4
350.00,1576.0
352.00,1634.3
354.00,1702.5
356.00,1804.9
358.00,1927.8
360.00,2091.8
362.00,2312.9
364.00,2583.8
366.00,2865.3
368.00,3111.3
370.00,3301.3
372.00,3412.1
374.00,3497.9
376.00,3596.5
378.00,3749.6
380.00,3964.4
382.00,4246.1
384.00,4576.8
386.00,4903.1
388.00,5215.3
390.00,5410.3
392.00,5498.0
394.00,5473.0
396.00,5422.9
398.00,5388.4
400.00,5396.9
402.00,5515.9
404.00,5746.8
406.00,6043.2
408.00,6465.5
410.00,6960.3
412.00,7547.5
414.00,8134.7
416.00,8844.6
418.00,9608.1
420.00,10422
422.00,11248
424.00,12082
426.00,12949
428.00,13859
430.00,14776
432.00,15533
434.00,16413
436.00,17139
438.00,17916
440.00,18614
442.00,19284
444.00,19823
446.00,20401
448.00,20876
450.00,21194
452.00,21507
454.00,21600
456.00,21528
458.00,21309
460.00,20883
462.00,20188
464.00,19339
466.00,18288
468.00,16980
470.00,15622
472.00,14124
474.00,12613
476.00,11144
478.00,9645.5
480.00,8247.8
482.00,6963.6
484.00,5793.4
486.00,4750.4
488.00,3930.9
490.00,3110.6
492.00,2462.2
494.00,1945.5
496.00,1491.8
498.00,1144.8
500.00,872.44
502.00,667.15
504.00,498.46
506.00,367.69
508.00,284.15
510.00,211.39
512.00,165.07
514.00,113.53
516.00,96.154
518.00,88.948
520.00,71.978
522.00,68.154
524.00,53.013
526.00,52.307
528.00,48.878
530.00,34.143
532.00,31.203
534.00,32.398
536.00,60.494
538.00,46.249
540.00,39.222
542.00,33.354
544.00,34.991
546.00,25.108
548.00,38.301
550.00,40.919
552.00,32.314
554.00,30.175
556.00,39.807
558.00,47.025
560.00,46.798
562.00,44.934
564.00,31.334
566.00,33.342
568.00,37.608
570.00,40.895
572.00,38.779
574.00,39.891
576.00,34.824
578.00,39.186
580.00,38.863
582.00,39.365
584.00,34.406
586.00,35.493
588.00,37.142
590.00,38.947
592.00,39.126
594.00,40.261
596.00,39.520
598.00,39.628
600.00,36.616